stimFile,corrAns,trials.thisRepN,trials.thisTrialN,trials.thisN,trials.thisIndex,key_respons.keys,key_respons.corr,key_respons.rt,session,noise,participant,frameRate,expName,date,
x.png,tab,0,0,0,1,tab,1,0.250154972076,4,n,BJJ_20,60.0233264022,go_no-go,2017_maj_27_1131,
+.png,None,0,1,1,0,None,1,,4,n,BJJ_20,60.0233264022,go_no-go,2017_maj_27_1131,
x.png,tab,1,0,2,1,tab,1,0.267112970352,4,n,BJJ_20,60.0233264022,go_no-go,2017_maj_27_1131,
+.png,None,1,1,3,0,None,1,,4,n,BJJ_20,60.0233264022,go_no-go,2017_maj_27_1131,
+.png,None,2,0,4,0,None,1,,4,n,BJJ_20,60.0233264022,go_no-go,2017_maj_27_1131,
x.png,tab,2,1,5,1,tab,1,0.116883993149,4,n,BJJ_20,60.0233264022,go_no-go,2017_maj_27_1131,
+.png,None,3,0,6,0,None,1,,4,n,BJJ_20,60.0233264022,go_no-go,2017_maj_27_1131,
x.png,tab,3,1,7,1,tab,1,0.31676697731,4,n,BJJ_20,60.0233264022,go_no-go,2017_maj_27_1131,
+.png,None,4,0,8,0,None,1,,4,n,BJJ_20,60.0233264022,go_no-go,2017_maj_27_1131,
x.png,tab,4,1,9,1,tab,1,0.433263063431,4,n,BJJ_20,60.0233264022,go_no-go,2017_maj_27_1131,
+.png,None,5,0,10,0,None,1,,4,n,BJJ_20,60.0233264022,go_no-go,2017_maj_27_1131,
x.png,tab,5,1,11,1,tab,1,0.100075006485,4,n,BJJ_20,60.0233264022,go_no-go,2017_maj_27_1131,
x.png,tab,6,0,12,1,tab,1,0.416686058044,4,n,BJJ_20,60.0233264022,go_no-go,2017_maj_27_1131,
+.png,None,6,1,13,0,None,1,,4,n,BJJ_20,60.0233264022,go_no-go,2017_maj_27_1131,
x.png,tab,7,0,14,1,tab,1,0.316742897034,4,n,BJJ_20,60.0233264022,go_no-go,2017_maj_27_1131,
+.png,None,7,1,15,0,None,1,,4,n,BJJ_20,60.0233264022,go_no-go,2017_maj_27_1131,
+.png,None,8,0,16,0,None,1,,4,n,BJJ_20,60.0233264022,go_no-go,2017_maj_27_1131,
x.png,tab,8,1,17,1,tab,1,0.250121116638,4,n,BJJ_20,60.0233264022,go_no-go,2017_maj_27_1131,
x.png,tab,9,0,18,1,tab,1,0.183459043503,4,n,BJJ_20,60.0233264022,go_no-go,2017_maj_27_1131,
+.png,None,9,1,19,0,None,1,,4,n,BJJ_20,60.0233264022,go_no-go,2017_maj_27_1131,
+.png,None,10,0,20,0,None,1,,4,n,BJJ_20,60.0233264022,go_no-go,2017_maj_27_1131,
x.png,tab,10,1,21,1,tab,1,0.18351483345,4,n,BJJ_20,60.0233264022,go_no-go,2017_maj_27_1131,
x.png,tab,11,0,22,1,tab,1,0.233448982239,4,n,BJJ_20,60.0233264022,go_no-go,2017_maj_27_1131,
+.png,None,11,1,23,0,None,1,,4,n,BJJ_20,60.0233264022,go_no-go,2017_maj_27_1131,
+.png,None,12,0,24,0,None,1,,4,n,BJJ_20,60.0233264022,go_no-go,2017_maj_27_1131,
x.png,tab,12,1,25,1,tab,1,0.20019698143,4,n,BJJ_20,60.0233264022,go_no-go,2017_maj_27_1131,
x.png,tab,13,0,26,1,tab,1,0.316764116287,4,n,BJJ_20,60.0233264022,go_no-go,2017_maj_27_1131,
+.png,None,13,1,27,0,None,1,,4,n,BJJ_20,60.0233264022,go_no-go,2017_maj_27_1131,
+.png,None,14,0,28,0,None,1,,4,n,BJJ_20,60.0233264022,go_no-go,2017_maj_27_1131,
x.png,tab,14,1,29,1,tab,1,0.283442020416,4,n,BJJ_20,60.0233264022,go_no-go,2017_maj_27_1131,
x.png,tab,15,0,30,1,tab,1,0.266847133636,4,n,BJJ_20,60.0233264022,go_no-go,2017_maj_27_1131,
+.png,None,15,1,31,0,None,1,,4,n,BJJ_20,60.0233264022,go_no-go,2017_maj_27_1131,
+.png,None,16,0,32,0,None,1,,4,n,BJJ_20,60.0233264022,go_no-go,2017_maj_27_1131,
x.png,tab,16,1,33,1,tab,1,0.216739177704,4,n,BJJ_20,60.0233264022,go_no-go,2017_maj_27_1131,
+.png,None,17,0,34,0,None,1,,4,n,BJJ_20,60.0233264022,go_no-go,2017_maj_27_1131,
x.png,tab,17,1,35,1,tab,1,0.21676492691,4,n,BJJ_20,60.0233264022,go_no-go,2017_maj_27_1131,
+.png,None,18,0,36,0,None,1,,4,n,BJJ_20,60.0233264022,go_no-go,2017_maj_27_1131,
x.png,tab,18,1,37,1,tab,1,0.283445119858,4,n,BJJ_20,60.0233264022,go_no-go,2017_maj_27_1131,
+.png,None,19,0,38,0,None,1,,4,n,BJJ_20,60.0233264022,go_no-go,2017_maj_27_1131,
x.png,tab,19,1,39,1,tab,1,0.383859157562,4,n,BJJ_20,60.0233264022,go_no-go,2017_maj_27_1131,
x.png,tab,20,0,40,1,tab,1,0.334120988846,4,n,BJJ_20,60.0233264022,go_no-go,2017_maj_27_1131,
+.png,None,20,1,41,0,None,1,,4,n,BJJ_20,60.0233264022,go_no-go,2017_maj_27_1131,
x.png,tab,21,0,42,1,tab,1,0.267280101776,4,n,BJJ_20,60.0233264022,go_no-go,2017_maj_27_1131,
+.png,None,21,1,43,0,None,1,,4,n,BJJ_20,60.0233264022,go_no-go,2017_maj_27_1131,
x.png,tab,22,0,44,1,tab,1,0.250051021576,4,n,BJJ_20,60.0233264022,go_no-go,2017_maj_27_1131,
+.png,None,22,1,45,0,None,1,,4,n,BJJ_20,60.0233264022,go_no-go,2017_maj_27_1131,
x.png,tab,23,0,46,1,tab,1,0.21671795845,4,n,BJJ_20,60.0233264022,go_no-go,2017_maj_27_1131,
+.png,None,23,1,47,0,None,1,,4,n,BJJ_20,60.0233264022,go_no-go,2017_maj_27_1131,
x.png,tab,24,0,48,1,tab,1,0.266824960709,4,n,BJJ_20,60.0233264022,go_no-go,2017_maj_27_1131,
+.png,None,24,1,49,0,None,1,,4,n,BJJ_20,60.0233264022,go_no-go,2017_maj_27_1131,
x.png,tab,25,0,50,1,tab,1,0.266710042953,4,n,BJJ_20,60.0233264022,go_no-go,2017_maj_27_1131,
+.png,None,25,1,51,0,None,1,,4,n,BJJ_20,60.0233264022,go_no-go,2017_maj_27_1131,
+.png,None,26,0,52,0,None,1,,4,n,BJJ_20,60.0233264022,go_no-go,2017_maj_27_1131,
x.png,tab,26,1,53,1,tab,1,0.150214910507,4,n,BJJ_20,60.0233264022,go_no-go,2017_maj_27_1131,
x.png,tab,27,0,54,1,tab,1,0.350111961365,4,n,BJJ_20,60.0233264022,go_no-go,2017_maj_27_1131,
+.png,None,27,1,55,0,None,1,,4,n,BJJ_20,60.0233264022,go_no-go,2017_maj_27_1131,
+.png,None,28,0,56,0,None,1,,4,n,BJJ_20,60.0233264022,go_no-go,2017_maj_27_1131,
x.png,tab,28,1,57,1,tab,1,0.267603874207,4,n,BJJ_20,60.0233264022,go_no-go,2017_maj_27_1131,
x.png,tab,29,0,58,1,tab,1,0.266753911972,4,n,BJJ_20,60.0233264022,go_no-go,2017_maj_27_1131,
+.png,None,29,1,59,0,None,1,,4,n,BJJ_20,60.0233264022,go_no-go,2017_maj_27_1131,
