stimFile,corrAns,trials.thisRepN,trials.thisTrialN,trials.thisN,trials.thisIndex,key_respons.keys,key_respons.corr,key_respons.rt,session,noise,participant,frameRate,expName,date,
+.png,None,0,0,0,0,None,1,,4,y,BJJ_21,60.0312300071,go_no-go,2017_maj_27_1140,
x.png,tab,0,1,1,1,tab,1,0.216856002808,4,y,BJJ_21,60.0312300071,go_no-go,2017_maj_27_1140,
+.png,None,1,0,2,0,tab,0,0.183479070663,4,y,BJJ_21,60.0312300071,go_no-go,2017_maj_27_1140,
x.png,tab,1,1,3,1,tab,1,0.100198984146,4,y,BJJ_21,60.0312300071,go_no-go,2017_maj_27_1140,
x.png,tab,2,0,4,1,tab,1,0.366725921631,4,y,BJJ_21,60.0312300071,go_no-go,2017_maj_27_1140,
+.png,None,2,1,5,0,tab,0,0.150558948517,4,y,BJJ_21,60.0312300071,go_no-go,2017_maj_27_1140,
+.png,None,3,0,6,0,None,1,,4,y,BJJ_21,60.0312300071,go_no-go,2017_maj_27_1140,
x.png,tab,3,1,7,1,tab,1,0.133493900299,4,y,BJJ_21,60.0312300071,go_no-go,2017_maj_27_1140,
x.png,tab,4,0,8,1,tab,1,0.166812896729,4,y,BJJ_21,60.0312300071,go_no-go,2017_maj_27_1140,
+.png,None,4,1,9,0,None,1,,4,y,BJJ_21,60.0312300071,go_no-go,2017_maj_27_1140,
+.png,None,5,0,10,0,None,1,,4,y,BJJ_21,60.0312300071,go_no-go,2017_maj_27_1140,
x.png,tab,5,1,11,1,tab,1,0.150146961212,4,y,BJJ_21,60.0312300071,go_no-go,2017_maj_27_1140,
x.png,tab,6,0,12,1,tab,1,0.266691923141,4,y,BJJ_21,60.0312300071,go_no-go,2017_maj_27_1140,
+.png,None,6,1,13,0,None,1,,4,y,BJJ_21,60.0312300071,go_no-go,2017_maj_27_1140,
x.png,tab,7,0,14,1,tab,1,0.216789960861,4,y,BJJ_21,60.0312300071,go_no-go,2017_maj_27_1140,
+.png,None,7,1,15,0,None,1,,4,y,BJJ_21,60.0312300071,go_no-go,2017_maj_27_1140,
x.png,tab,8,0,16,1,tab,1,0.150032997131,4,y,BJJ_21,60.0312300071,go_no-go,2017_maj_27_1140,
+.png,None,8,1,17,0,None,1,,4,y,BJJ_21,60.0312300071,go_no-go,2017_maj_27_1140,
x.png,tab,9,0,18,1,tab,1,0.166856050491,4,y,BJJ_21,60.0312300071,go_no-go,2017_maj_27_1140,
+.png,None,9,1,19,0,None,1,,4,y,BJJ_21,60.0312300071,go_no-go,2017_maj_27_1140,
+.png,None,10,0,20,0,None,1,,4,y,BJJ_21,60.0312300071,go_no-go,2017_maj_27_1140,
x.png,tab,10,1,21,1,tab,1,0.2501039505,4,y,BJJ_21,60.0312300071,go_no-go,2017_maj_27_1140,
+.png,None,11,0,22,0,None,1,,4,y,BJJ_21,60.0312300071,go_no-go,2017_maj_27_1140,
x.png,tab,11,1,23,1,tab,1,0.216794967651,4,y,BJJ_21,60.0312300071,go_no-go,2017_maj_27_1140,
x.png,tab,12,0,24,1,tab,1,0.216855049133,4,y,BJJ_21,60.0312300071,go_no-go,2017_maj_27_1140,
+.png,None,12,1,25,0,None,1,,4,y,BJJ_21,60.0312300071,go_no-go,2017_maj_27_1140,
x.png,tab,13,0,26,1,tab,1,0.21673989296,4,y,BJJ_21,60.0312300071,go_no-go,2017_maj_27_1140,
+.png,None,13,1,27,0,None,1,,4,y,BJJ_21,60.0312300071,go_no-go,2017_maj_27_1140,
x.png,tab,14,0,28,1,tab,1,0.233468055725,4,y,BJJ_21,60.0312300071,go_no-go,2017_maj_27_1140,
+.png,None,14,1,29,0,None,1,,4,y,BJJ_21,60.0312300071,go_no-go,2017_maj_27_1140,
+.png,None,15,0,30,0,None,1,,4,y,BJJ_21,60.0312300071,go_no-go,2017_maj_27_1140,
x.png,tab,15,1,31,1,tab,1,0.283402919769,4,y,BJJ_21,60.0312300071,go_no-go,2017_maj_27_1140,
+.png,None,16,0,32,0,None,1,,4,y,BJJ_21,60.0312300071,go_no-go,2017_maj_27_1140,
x.png,tab,16,1,33,1,tab,1,0.250090122223,4,y,BJJ_21,60.0312300071,go_no-go,2017_maj_27_1140,
x.png,tab,17,0,34,1,tab,1,0.266740083694,4,y,BJJ_21,60.0312300071,go_no-go,2017_maj_27_1140,
+.png,None,17,1,35,0,None,1,,4,y,BJJ_21,60.0312300071,go_no-go,2017_maj_27_1140,
x.png,tab,18,0,36,1,tab,1,0.216768026352,4,y,BJJ_21,60.0312300071,go_no-go,2017_maj_27_1140,
+.png,None,18,1,37,0,None,1,,4,y,BJJ_21,60.0312300071,go_no-go,2017_maj_27_1140,
x.png,tab,19,0,38,1,tab,1,0.233394145966,4,y,BJJ_21,60.0312300071,go_no-go,2017_maj_27_1140,
+.png,None,19,1,39,0,None,1,,4,y,BJJ_21,60.0312300071,go_no-go,2017_maj_27_1140,
+.png,None,20,0,40,0,None,1,,4,y,BJJ_21,60.0312300071,go_no-go,2017_maj_27_1140,
x.png,tab,20,1,41,1,tab,1,0.233436107635,4,y,BJJ_21,60.0312300071,go_no-go,2017_maj_27_1140,
x.png,tab,21,0,42,1,tab,1,0.283442974091,4,y,BJJ_21,60.0312300071,go_no-go,2017_maj_27_1140,
+.png,None,21,1,43,0,None,1,,4,y,BJJ_21,60.0312300071,go_no-go,2017_maj_27_1140,
x.png,tab,22,0,44,1,tab,1,0.183458089828,4,y,BJJ_21,60.0312300071,go_no-go,2017_maj_27_1140,
+.png,None,22,1,45,0,None,1,,4,y,BJJ_21,60.0312300071,go_no-go,2017_maj_27_1140,
x.png,tab,23,0,46,1,tab,1,0.20015001297,4,y,BJJ_21,60.0312300071,go_no-go,2017_maj_27_1140,
+.png,None,23,1,47,0,None,1,,4,y,BJJ_21,60.0312300071,go_no-go,2017_maj_27_1140,
+.png,None,24,0,48,0,tab,0,0.283426046371,4,y,BJJ_21,60.0312300071,go_no-go,2017_maj_27_1140,
x.png,tab,24,1,49,1,tab,1,0.366755962372,4,y,BJJ_21,60.0312300071,go_no-go,2017_maj_27_1140,
x.png,tab,25,0,50,1,tab,1,0.333389997482,4,y,BJJ_21,60.0312300071,go_no-go,2017_maj_27_1140,
+.png,None,25,1,51,0,None,1,,4,y,BJJ_21,60.0312300071,go_no-go,2017_maj_27_1140,
x.png,tab,26,0,52,1,tab,1,0.266785860062,4,y,BJJ_21,60.0312300071,go_no-go,2017_maj_27_1140,
+.png,None,26,1,53,0,None,1,,4,y,BJJ_21,60.0312300071,go_no-go,2017_maj_27_1140,
x.png,tab,27,0,54,1,tab,1,0.300082921982,4,y,BJJ_21,60.0312300071,go_no-go,2017_maj_27_1140,
+.png,None,27,1,55,0,None,1,,4,y,BJJ_21,60.0312300071,go_no-go,2017_maj_27_1140,
+.png,None,28,0,56,0,None,1,,4,y,BJJ_21,60.0312300071,go_no-go,2017_maj_27_1140,
x.png,tab,28,1,57,1,tab,1,0.300097942352,4,y,BJJ_21,60.0312300071,go_no-go,2017_maj_27_1140,
x.png,tab,29,0,58,1,tab,1,0.33337521553,4,y,BJJ_21,60.0312300071,go_no-go,2017_maj_27_1140,
+.png,None,29,1,59,0,None,1,,4,y,BJJ_21,60.0312300071,go_no-go,2017_maj_27_1140,
