stimFile,corrAns,trials.thisRepN,trials.thisTrialN,trials.thisN,trials.thisIndex,key_respons.keys,key_respons.corr,key_respons.rt,session,noise,participant,frameRate,expName,date,X16
x.png,tab,0,0,0,1,None,0,,3,y,KM_15,59.6534310795,go_no-go,2017_maj_25_1604,
+.png,None,0,1,1,0,tab,0,0.0943725861,3,y,KM_15,59.6534310795,go_no-go,2017_maj_25_1604,
x.png,tab,1,0,2,1,tab,1,0.0935943291,3,y,KM_15,59.6534310795,go_no-go,2017_maj_25_1604,
+.png,None,1,1,3,0,None,1,,3,y,KM_15,59.6534310795,go_no-go,2017_maj_25_1604,
x.png,tab,2,0,4,1,tab,1,0.1936829094,3,y,KM_15,59.6534310795,go_no-go,2017_maj_25_1604,
+.png,None,2,1,5,0,None,1,,3,y,KM_15,59.6534310795,go_no-go,2017_maj_25_1604,
x.png,tab,3,0,6,1,tab,1,0.1565840587,3,y,KM_15,59.6534310795,go_no-go,2017_maj_25_1604,
+.png,None,3,1,7,0,None,1,,3,y,KM_15,59.6534310795,go_no-go,2017_maj_25_1604,
x.png,tab,4,0,8,1,tab,1,0.187857138,3,y,KM_15,59.6534310795,go_no-go,2017_maj_25_1604,
+.png,None,4,1,9,0,None,1,,3,y,KM_15,59.6534310795,go_no-go,2017_maj_25_1604,
x.png,tab,5,0,10,1,tab,1,0.1253979977,3,y,KM_15,59.6534310795,go_no-go,2017_maj_25_1604,
+.png,None,5,1,11,0,None,1,,3,y,KM_15,59.6534310795,go_no-go,2017_maj_25_1604,
+.png,None,6,0,12,0,tab,0,0.2816496013,3,y,KM_15,59.6534310795,go_no-go,2017_maj_25_1604,
x.png,tab,6,1,13,1,tab,1,0.2423815378,3,y,KM_15,59.6534310795,go_no-go,2017_maj_25_1604,
+.png,None,7,0,14,0,None,1,,3,y,KM_15,59.6534310795,go_no-go,2017_maj_25_1604,
x.png,tab,7,1,15,1,tab,1,0.2506969282,3,y,KM_15,59.6534310795,go_no-go,2017_maj_25_1604,
x.png,tab,8,0,16,1,tab,1,0.5627860173,3,y,KM_15,59.6534310795,go_no-go,2017_maj_25_1604,
+.png,None,8,1,17,0,None,1,,3,y,KM_15,59.6534310795,go_no-go,2017_maj_25_1604,
+.png,None,9,0,18,0,tab,0,0.3439418449,3,y,KM_15,59.6534310795,go_no-go,2017_maj_25_1604,
x.png,tab,9,1,19,1,tab,1,0.344017707,3,y,KM_15,59.6534310795,go_no-go,2017_maj_25_1604,
x.png,tab,10,0,20,1,tab,1,0.2815581204,3,y,KM_15,59.6534310795,go_no-go,2017_maj_25_1604,
+.png,None,10,1,21,0,None,1,,3,y,KM_15,59.6534310795,go_no-go,2017_maj_25_1604,
+.png,None,11,0,22,0,None,1,,3,y,KM_15,59.6534310795,go_no-go,2017_maj_25_1604,
x.png,tab,11,1,23,1,tab,1,0.2829642488,3,y,KM_15,59.6534310795,go_no-go,2017_maj_25_1604,
x.png,tab,12,0,24,1,tab,1,0.4069833393,3,y,KM_15,59.6534310795,go_no-go,2017_maj_25_1604,
+.png,None,12,1,25,0,None,1,,3,y,KM_15,59.6534310795,go_no-go,2017_maj_25_1604,
x.png,tab,13,0,26,1,tab,1,0.2504800515,3,y,KM_15,59.6534310795,go_no-go,2017_maj_25_1604,
+.png,None,13,1,27,0,None,1,,3,y,KM_15,59.6534310795,go_no-go,2017_maj_25_1604,
x.png,tab,14,0,28,1,tab,1,0.2191730572,3,y,KM_15,59.6534310795,go_no-go,2017_maj_25_1604,
+.png,None,14,1,29,0,None,1,,3,y,KM_15,59.6534310795,go_no-go,2017_maj_25_1604,
+.png,None,15,0,30,0,None,1,,3,y,KM_15,59.6534310795,go_no-go,2017_maj_25_1604,
x.png,tab,15,1,31,1,tab,1,0.2370484247,3,y,KM_15,59.6534310795,go_no-go,2017_maj_25_1604,
+.png,None,16,0,32,0,None,1,,3,y,KM_15,59.6534310795,go_no-go,2017_maj_25_1604,
x.png,tab,16,1,33,1,tab,1,0.2813220551,3,y,KM_15,59.6534310795,go_no-go,2017_maj_25_1604,
+.png,None,17,0,34,0,None,1,,3,y,KM_15,59.6534310795,go_no-go,2017_maj_25_1604,
x.png,tab,17,1,35,1,tab,1,0.2809146305,3,y,KM_15,59.6534310795,go_no-go,2017_maj_25_1604,
+.png,None,18,0,36,0,None,1,,3,y,KM_15,59.6534310795,go_no-go,2017_maj_25_1604,
x.png,tab,18,1,37,1,tab,1,0.3131275087,3,y,KM_15,59.6534310795,go_no-go,2017_maj_25_1604,
+.png,None,19,0,38,0,None,1,,3,y,KM_15,59.6534310795,go_no-go,2017_maj_25_1604,
x.png,tab,19,1,39,1,tab,1,0.2817268024,3,y,KM_15,59.6534310795,go_no-go,2017_maj_25_1604,
x.png,tab,20,0,40,1,tab,1,0.2855507039,3,y,KM_15,59.6534310795,go_no-go,2017_maj_25_1604,
+.png,None,20,1,41,0,None,1,,3,y,KM_15,59.6534310795,go_no-go,2017_maj_25_1604,
x.png,tab,21,0,42,1,tab,1,0.3122372434,3,y,KM_15,59.6534310795,go_no-go,2017_maj_25_1604,
+.png,None,21,1,43,0,None,1,,3,y,KM_15,59.6534310795,go_no-go,2017_maj_25_1604,
+.png,None,22,0,44,0,tab,0,0.3439998572,3,y,KM_15,59.6534310795,go_no-go,2017_maj_25_1604,
x.png,tab,22,1,45,1,tab,1,0.2816192565,3,y,KM_15,59.6534310795,go_no-go,2017_maj_25_1604,
+.png,None,23,0,46,0,None,1,,3,y,KM_15,59.6534310795,go_no-go,2017_maj_25_1604,
x.png,tab,23,1,47,1,tab,1,0.2503515321,3,y,KM_15,59.6534310795,go_no-go,2017_maj_25_1604,
x.png,tab,24,0,48,1,tab,1,0.406740134,3,y,KM_15,59.6534310795,go_no-go,2017_maj_25_1604,
+.png,None,24,1,49,0,None,1,,3,y,KM_15,59.6534310795,go_no-go,2017_maj_25_1604,
+.png,None,25,0,50,0,None,1,,3,y,KM_15,59.6534310795,go_no-go,2017_maj_25_1604,
x.png,tab,25,1,51,1,tab,1,0.2502716536,3,y,KM_15,59.6534310795,go_no-go,2017_maj_25_1604,
+.png,None,26,0,52,0,None,1,,3,y,KM_15,59.6534310795,go_no-go,2017_maj_25_1604,
x.png,tab,26,1,53,1,tab,1,0.3132796794,3,y,KM_15,59.6534310795,go_no-go,2017_maj_25_1604,
x.png,tab,27,0,54,1,tab,1,0.4382599887,3,y,KM_15,59.6534310795,go_no-go,2017_maj_25_1604,
+.png,None,27,1,55,0,None,1,,3,y,KM_15,59.6534310795,go_no-go,2017_maj_25_1604,
+.png,None,28,0,56,0,None,1,,3,y,KM_15,59.6534310795,go_no-go,2017_maj_25_1604,
x.png,tab,28,1,57,1,tab,1,0.2504028506,3,y,KM_15,59.6534310795,go_no-go,2017_maj_25_1604,
+.png,None,29,0,58,0,None,1,,3,y,KM_15,59.6534310795,go_no-go,2017_maj_25_1604,
x.png,tab,29,1,59,1,tab,1,0.2814586072,3,y,KM_15,59.6534310795,go_no-go,2017_maj_25_1604,
