stimFile,corrAns,trials.thisRepN,trials.thisTrialN,trials.thisN,trials.thisIndex,key_respons.keys,key_respons.corr,key_respons.rt,session,noise,participant,frameRate,expName,date,
x.png,tab,0,0,0,1,tab,1,0.450024843216,4,n,MMA17,60.0983225559,go_no-go,2017_maj_25_2109,
+.png,None,0,1,1,0,None,1,,4,n,MMA17,60.0983225559,go_no-go,2017_maj_25_2109,
+.png,None,1,0,2,0,None,1,,4,n,MMA17,60.0983225559,go_no-go,2017_maj_25_2109,
x.png,tab,1,1,3,1,tab,1,0.333494186401,4,n,MMA17,60.0983225559,go_no-go,2017_maj_25_2109,
x.png,tab,2,0,4,1,tab,1,0.999904870987,4,n,MMA17,60.0983225559,go_no-go,2017_maj_25_2109,
+.png,None,2,1,5,0,None,1,,4,n,MMA17,60.0983225559,go_no-go,2017_maj_25_2109,
+.png,None,3,0,6,0,None,1,,4,n,MMA17,60.0983225559,go_no-go,2017_maj_25_2109,
x.png,tab,3,1,7,1,tab,1,0.516969919205,4,n,MMA17,60.0983225559,go_no-go,2017_maj_25_2109,
+.png,None,4,0,8,0,None,1,,4,n,MMA17,60.0983225559,go_no-go,2017_maj_25_2109,
x.png,tab,4,1,9,1,tab,1,0.350101947784,4,n,MMA17,60.0983225559,go_no-go,2017_maj_25_2109,
+.png,None,5,0,10,0,None,1,,4,n,MMA17,60.0983225559,go_no-go,2017_maj_25_2109,
x.png,tab,5,1,11,1,tab,1,0.53383898735,4,n,MMA17,60.0983225559,go_no-go,2017_maj_25_2109,
+.png,None,6,0,12,0,None,1,,4,n,MMA17,60.0983225559,go_no-go,2017_maj_25_2109,
x.png,tab,6,1,13,1,tab,1,0.516629934311,4,n,MMA17,60.0983225559,go_no-go,2017_maj_25_2109,
x.png,tab,7,0,14,1,tab,1,0.466667890549,4,n,MMA17,60.0983225559,go_no-go,2017_maj_25_2109,
+.png,None,7,1,15,0,None,1,,4,n,MMA17,60.0983225559,go_no-go,2017_maj_25_2109,
x.png,tab,8,0,16,1,tab,1,0.367280960083,4,n,MMA17,60.0983225559,go_no-go,2017_maj_25_2109,
+.png,None,8,1,17,0,None,1,,4,n,MMA17,60.0983225559,go_no-go,2017_maj_25_2109,
+.png,None,9,0,18,0,None,1,,4,n,MMA17,60.0983225559,go_no-go,2017_maj_25_2109,
x.png,tab,9,1,19,1,tab,1,0.400063037872,4,n,MMA17,60.0983225559,go_no-go,2017_maj_25_2109,
x.png,tab,10,0,20,1,tab,1,0.41672706604,4,n,MMA17,60.0983225559,go_no-go,2017_maj_25_2109,
+.png,None,10,1,21,0,None,1,,4,n,MMA17,60.0983225559,go_no-go,2017_maj_25_2109,
+.png,None,11,0,22,0,None,1,,4,n,MMA17,60.0983225559,go_no-go,2017_maj_25_2109,
x.png,tab,11,1,23,1,tab,1,0.316737890244,4,n,MMA17,60.0983225559,go_no-go,2017_maj_25_2109,
x.png,tab,12,0,24,1,tab,1,0.300096988678,4,n,MMA17,60.0983225559,go_no-go,2017_maj_25_2109,
+.png,None,12,1,25,0,None,1,,4,n,MMA17,60.0983225559,go_no-go,2017_maj_25_2109,
+.png,None,13,0,26,0,None,1,,4,n,MMA17,60.0983225559,go_no-go,2017_maj_25_2109,
x.png,tab,13,1,27,1,tab,1,0.316716909409,4,n,MMA17,60.0983225559,go_no-go,2017_maj_25_2109,
+.png,None,14,0,28,0,None,1,,4,n,MMA17,60.0983225559,go_no-go,2017_maj_25_2109,
x.png,tab,14,1,29,1,tab,1,0.283325195312,4,n,MMA17,60.0983225559,go_no-go,2017_maj_25_2109,
x.png,tab,15,0,30,1,tab,1,0.283473968506,4,n,MMA17,60.0983225559,go_no-go,2017_maj_25_2109,
+.png,None,15,1,31,0,None,1,,4,n,MMA17,60.0983225559,go_no-go,2017_maj_25_2109,
x.png,tab,16,0,32,1,tab,1,0.300107955933,4,n,MMA17,60.0983225559,go_no-go,2017_maj_25_2109,
+.png,None,16,1,33,0,None,1,,4,n,MMA17,60.0983225559,go_no-go,2017_maj_25_2109,
x.png,tab,17,0,34,1,tab,1,0.300097942352,4,n,MMA17,60.0983225559,go_no-go,2017_maj_25_2109,
+.png,None,17,1,35,0,None,1,,4,n,MMA17,60.0983225559,go_no-go,2017_maj_25_2109,
+.png,None,18,0,36,0,None,1,,4,n,MMA17,60.0983225559,go_no-go,2017_maj_25_2109,
x.png,tab,18,1,37,1,tab,1,0.383358001709,4,n,MMA17,60.0983225559,go_no-go,2017_maj_25_2109,
+.png,None,19,0,38,0,None,1,,4,n,MMA17,60.0983225559,go_no-go,2017_maj_25_2109,
x.png,tab,19,1,39,1,tab,1,0.383477210999,4,n,MMA17,60.0983225559,go_no-go,2017_maj_25_2109,
x.png,tab,20,0,40,1,tab,1,0.466689109802,4,n,MMA17,60.0983225559,go_no-go,2017_maj_25_2109,
+.png,None,20,1,41,0,None,1,,4,n,MMA17,60.0983225559,go_no-go,2017_maj_25_2109,
+.png,None,21,0,42,0,None,1,,4,n,MMA17,60.0983225559,go_no-go,2017_maj_25_2109,
x.png,tab,21,1,43,1,tab,1,0.300093889236,4,n,MMA17,60.0983225559,go_no-go,2017_maj_25_2109,
+.png,None,22,0,44,0,None,1,,4,n,MMA17,60.0983225559,go_no-go,2017_maj_25_2109,
x.png,tab,22,1,45,1,tab,1,0.366735935211,4,n,MMA17,60.0983225559,go_no-go,2017_maj_25_2109,
+.png,None,23,0,46,0,None,1,,4,n,MMA17,60.0983225559,go_no-go,2017_maj_25_2109,
x.png,tab,23,1,47,1,tab,1,0.233597993851,4,n,MMA17,60.0983225559,go_no-go,2017_maj_25_2109,
x.png,tab,24,0,48,1,tab,1,0.550014019012,4,n,MMA17,60.0983225559,go_no-go,2017_maj_25_2109,
+.png,None,24,1,49,0,None,1,,4,n,MMA17,60.0983225559,go_no-go,2017_maj_25_2109,
x.png,tab,25,0,50,1,tab,1,0.366795063019,4,n,MMA17,60.0983225559,go_no-go,2017_maj_25_2109,
+.png,None,25,1,51,0,None,1,,4,n,MMA17,60.0983225559,go_no-go,2017_maj_25_2109,
x.png,tab,26,0,52,1,tab,1,0.283629894257,4,n,MMA17,60.0983225559,go_no-go,2017_maj_25_2109,
+.png,None,26,1,53,0,None,1,,4,n,MMA17,60.0983225559,go_no-go,2017_maj_25_2109,
+.png,None,27,0,54,0,None,1,,4,n,MMA17,60.0983225559,go_no-go,2017_maj_25_2109,
x.png,tab,27,1,55,1,tab,1,0.316635131836,4,n,MMA17,60.0983225559,go_no-go,2017_maj_25_2109,
x.png,tab,28,0,56,1,tab,1,0.366667032242,4,n,MMA17,60.0983225559,go_no-go,2017_maj_25_2109,
+.png,None,28,1,57,0,None,1,,4,n,MMA17,60.0983225559,go_no-go,2017_maj_25_2109,
x.png,tab,29,0,58,1,tab,1,0.250097990036,4,n,MMA17,60.0983225559,go_no-go,2017_maj_25_2109,
+.png,None,29,1,59,0,None,1,,4,n,MMA17,60.0983225559,go_no-go,2017_maj_25_2109,
